»»»»»»»»»»»»»»»»»»»»»»»»»»»»»»»»»»»» Hysteresis ««««««««««««««««««««««««««««««««««««
»»»  Executed Version:	5.15.2
»»»  Vision Version:	5.15.9 (R)
»»»  Vision Compiled:	11/30/17
»»»  Driver Version:	5.15.8
»»»  Windows Version:	Windows 7
»»»  Processor Information:	x86 (AMD or Intel) - 4 Processors
»»»  Tester Name:	
»»»  Tester S/N:	PMF21217-360
»»»  Internal Amp Type:	200V RevH 100K 
»»»  Internal Amp S/N:	iAB2-391/H     
»»»  Execution Count:	1
»»»»»»»»»»»»»»»»»»»»»»»»»»»»»»»»»»»»»»»»»»««««««««««««««««««««««««««««««««««««««««««

Stored:	4/22/2022 - 17:0:15
Configured:	04/22/22 02:27:44 PM
Executed:	04/22/22 04:59:54 PM

»»»»»»»»»»»»»»»»»»»»»»»»»»»»»»»»»»» Sample Info ««««««««««««««««««««««««««««««««««««
Sample Name:	
Lot Name:	
Wafer Name:	
Die Row/Column:	0/0
Capacitor Number:	0
Sample Area (cm2):	2.80e-004
Sample Thickness (µm):	2.60e-001

Mux Loop Adjustment:	Disabled

Amplifier:	Internal

»»»»»»»»»»»»»»»»»»»»»»»»»»»»»»»»»»» Tester Info «««««««««««««««««««««««««««««««««««
Tester Name:	
Tester Serial Number:	PMF21217-360
Return Signal Amp. Level:	0.2 [Index: 1]

»»»»»»»»»»»»»»»»»»»»»»»»»»»»»»»» Hysteresis Info ««««««««««««««««««««««««««««««««««
Task Name:	Hyst-1
Volts:	60.00
Field:	2307.69 (kV/cm)
Hysteresis Period (ms):	1.00e-001
Preset:	Enabled
Preset Delay (ms):	1.00e+003
Profile:	Double Bipolar

»»»»»»»»»»»»»»»»»»»»»»»»»»»»»»»»»»»»»» Data «««««««««««««««««««««««««««««««««««««««
Points:	201

Valid Data

Point	Time (ms)	Drive Voltage	Measured Polarization
   1	5.0000e-004	-0.1891	-1.800423
   2	1.0000e-003	2.9624	0.934984
   3	1.5000e-003	5.3529	2.801087
   4	2.0000e-003	7.6904	4.559011
   5	2.5000e-003	10.0713	6.481780
   6	3.0000e-003	12.4521	8.381368
   7	3.5000e-003	14.7416	10.292547
   8	4.0000e-003	17.1881	12.395616
   9	4.5000e-003	19.5113	14.417551
  10	5.0000e-003	21.8713	16.501302
  11	5.5000e-003	24.3370	18.712551
  12	6.0000e-003	26.4903	20.707440
  13	6.5000e-003	29.0602	23.016567
  14	7.0000e-003	31.3353	25.079712
  15	7.5000e-003	33.7209	27.229144
  16	8.0000e-003	36.1562	29.441681
  17	8.5000e-003	38.4762	31.513842
  18	9.0000e-003	40.8202	33.526761
  19	9.5000e-003	43.2763	35.653012
  20	1.0000e-002	45.6075	37.595099
  21	1.0500e-002	47.9883	39.586125
  22	1.1000e-002	50.3963	41.462532
  23	1.1500e-002	52.6650	43.265530
  24	1.2000e-002	55.1981	45.241102
  25	1.2500e-002	57.4491	46.975844
  26	1.3000e-002	59.9100	48.808464
  27	1.3500e-002	56.7458	47.404700
  28	1.4000e-002	54.0926	46.031846
  29	1.4500e-002	51.8063	45.000273
  30	1.5000e-002	49.6385	44.102637
  31	1.5500e-002	47.1952	42.810917
  32	1.6000e-002	44.9377	41.726542
  33	1.6500e-002	42.5121	40.433534
  34	1.7000e-002	40.1777	38.966666
  35	1.7500e-002	37.8449	37.595099
  36	1.8000e-002	35.4080	35.848766
  37	1.8500e-002	33.0785	34.571213
  38	1.9000e-002	30.7377	32.969120
  39	1.9500e-002	28.3216	31.274301
  40	2.0000e-002	25.9552	29.542134
  41	2.0500e-002	23.6240	27.781635
  42	2.1000e-002	21.2064	25.861441
  43	2.1500e-002	18.8464	23.854961
  44	2.2000e-002	16.4335	21.831739
  45	2.2500e-002	14.0799	19.726094
  46	2.3000e-002	11.7311	17.550905
  47	2.3500e-002	9.2830	15.303596
  48	2.4000e-002	6.9518	13.093634
  49	2.4500e-002	4.5101	10.744585
  50	2.5000e-002	2.1918	8.512730
  51	2.5500e-002	-0.2035	6.249966
  52	2.6000e-002	-2.6740	3.871296
  53	2.6500e-002	-5.0452	1.685804
  54	2.7000e-002	-7.3812	-0.520294
  55	2.7500e-002	-9.8486	-2.864192
  56	2.8000e-002	-12.2038	-5.070290
  57	2.8500e-002	-14.5702	-7.258358
  58	2.9000e-002	-16.9798	-9.543015
  59	2.9500e-002	-19.4424	-11.906231
  60	3.0000e-002	-21.7447	-14.077557
  61	3.0500e-002	-24.1752	-16.373804
  62	3.1000e-002	-26.4919	-18.554145
  63	3.1500e-002	-28.9801	-20.983042
  64	3.2000e-002	-31.3000	-23.154367
  65	3.2500e-002	-33.7386	-25.446751
  66	3.3000e-002	-36.0745	-27.570426
  67	3.3500e-002	-38.5451	-29.844780
  68	3.4000e-002	-40.8234	-31.889896
  69	3.4500e-002	-43.3212	-34.093418
  70	3.5000e-002	-45.6651	-36.134670
  71	3.5500e-002	-48.1341	-38.173347
  72	3.6000e-002	-50.5277	-40.181115
  73	3.6500e-002	-52.8525	-42.052370
  74	3.7000e-002	-55.2702	-43.967412
  75	3.7500e-002	-57.7583	-45.882454
  76	3.8000e-002	-60.0879	-47.672574
  77	3.8500e-002	-57.1143	-46.083360
  78	3.9000e-002	-54.4386	-45.175421
  79	3.9500e-002	-52.1619	-44.195363
  80	4.0000e-002	-49.9686	-43.150911
  81	4.0500e-002	-47.5397	-42.053658
  82	4.1000e-002	-45.2390	-40.866254
  83	4.1500e-002	-42.8277	-39.511429
  84	4.2000e-002	-40.5414	-38.266072
  85	4.2500e-002	-38.1654	-36.826249
  86	4.3000e-002	-35.7797	-35.336199
  87	4.3500e-002	-33.3909	-33.829408
  88	4.4000e-002	-30.9876	-32.174512
  89	4.4500e-002	-28.6036	-30.319999
  90	4.5000e-002	-26.2756	-28.841540
  91	4.5500e-002	-23.9669	-27.053996
  92	4.6000e-002	-21.4883	-25.104182
  93	4.6500e-002	-19.1844	-23.284441
  94	4.7000e-002	-16.6994	-21.164629
  95	4.7500e-002	-14.3491	-19.092469
  96	4.8000e-002	-12.0355	-17.074398
  97	4.8500e-002	-9.5602	-14.922390
  98	4.9000e-002	-7.2242	-12.736898
  99	4.9500e-002	-4.7889	-10.525649
 100	5.0000e-002	-2.4609	-8.358187
 101	5.0500e-002	-0.0176	-5.915124
 102	5.1000e-002	2.2671	-3.922810
 103	5.1500e-002	4.7697	-1.645880
 104	5.2000e-002	7.0960	0.454613
 105	5.2500e-002	9.5698	2.808814
 106	5.3000e-002	11.8449	4.860369
 107	5.3500e-002	14.2673	7.160481
 108	5.4000e-002	16.6450	9.425820
 109	5.4500e-002	19.1059	11.731082
 110	5.5000e-002	21.4291	13.983543
 111	5.5500e-002	23.8483	16.310699
 112	5.6000e-002	26.1715	18.550281
 113	5.6500e-002	28.6469	20.944406
 114	5.7000e-002	31.0101	23.217472
 115	5.7500e-002	33.3893	25.450615
 116	5.8000e-002	35.7925	27.755878
 117	5.8500e-002	38.1461	29.919476
 118	5.9000e-002	40.5526	32.056030
 119	5.9500e-002	43.0071	34.269854
 120	6.0000e-002	45.2982	36.263456
 121	6.0500e-002	47.8040	38.378116
 122	6.1000e-002	50.1624	40.336945
 123	6.1500e-002	52.5465	42.261002
 124	6.2000e-002	54.9641	44.165742
 125	6.2500e-002	57.4075	46.123283
 126	6.3000e-002	59.7626	47.922418
 127	6.3500e-002	56.8851	46.710546
 128	6.4000e-002	54.1679	45.395645
 129	6.4500e-002	51.9729	44.433616
 130	6.5000e-002	49.6914	43.371135
 131	6.5500e-002	47.3058	42.233957
 132	6.6000e-002	44.9586	40.987313
 133	6.6500e-002	42.6082	39.716199
 134	6.7000e-002	40.2562	38.351071
 135	6.7500e-002	37.9122	37.029730
 136	6.8000e-002	35.5234	35.495894
 137	6.8500e-002	33.0704	33.937588
 138	6.9000e-002	30.7793	32.434659
 139	6.9500e-002	28.3665	30.714083
 140	7.0000e-002	25.9776	28.999947
 141	7.0500e-002	23.7074	27.287098
 142	7.1000e-002	21.2160	25.269027
 143	7.1500e-002	18.9297	23.355273
 144	7.2000e-002	16.4511	21.189099
 145	7.2500e-002	14.1312	19.187770
 146	7.3000e-002	11.7952	17.070534
 147	7.3500e-002	9.3150	14.765272
 148	7.4000e-002	6.9839	12.539856
 149	7.4500e-002	4.5998	10.284820
 150	7.5000e-002	2.2094	8.091601
 151	7.5500e-002	-0.1794	5.725809
 152	7.6000e-002	-2.5811	3.491378
 153	7.6500e-002	-4.9844	1.180964
 154	7.7000e-002	-7.3652	-0.910514
 155	7.7500e-002	-9.7652	-3.334260
 156	7.8000e-002	-12.1861	-5.599599
 157	7.8500e-002	-14.4804	-7.785091
 158	7.9000e-002	-16.9654	-10.143156
 159	7.9500e-002	-19.3126	-12.367283
 160	8.0000e-002	-21.7383	-14.713758
 161	8.0500e-002	-24.0903	-16.896674
 162	8.1000e-002	-26.4054	-18.934062
 163	8.1500e-002	-28.8631	-21.458261
 164	8.2000e-002	-31.2632	-23.735190
 165	8.2500e-002	-33.6520	-25.977348
 166	8.3000e-002	-36.0825	-28.307080
 167	8.3500e-002	-38.4297	-30.307121
 168	8.4000e-002	-40.7993	-32.424357
 169	8.4500e-002	-43.2234	-34.542880
 170	8.5000e-002	-45.6010	-36.539057
 171	8.5500e-002	-47.9979	-38.570006
 172	8.6000e-002	-50.4092	-40.522397
 173	8.6500e-002	-52.7499	-42.403954
 174	8.7000e-002	-55.2029	-44.281649
 175	8.7500e-002	-57.6189	-46.142601
 176	8.8000e-002	-60.0222	-47.922418
 177	8.8500e-002	-57.2136	-46.469717
 178	8.9000e-002	-54.5011	-45.490946
 179	8.9500e-002	-52.2501	-44.532781
 180	9.0000e-002	-49.9718	-43.563025
 181	9.0500e-002	-47.6502	-42.416833
 182	9.1000e-002	-45.2438	-41.158598
 183	9.1500e-002	-42.9527	-39.918392
 184	9.2000e-002	-40.5910	-38.582885
 185	9.2500e-002	-38.2551	-37.224197
 186	9.3000e-002	-35.8150	-35.707102
 187	9.3500e-002	-33.4389	-34.249249
 188	9.4000e-002	-31.0854	-32.626550
 189	9.4500e-002	-28.7206	-30.980670
 190	9.5000e-002	-26.2997	-29.169944
 191	9.5500e-002	-24.0823	-27.512473
 192	9.6000e-002	-21.5476	-25.484099
 193	9.6500e-002	-19.1956	-23.592238
 194	9.7000e-002	-16.7715	-21.569016
 195	9.7500e-002	-14.4436	-19.574127
 196	9.8000e-002	-12.0547	-17.477497
 197	9.8500e-002	-9.6787	-15.374428
 198	9.9000e-002	-7.2546	-13.183784
 199	9.9500e-002	-4.8850	-10.997004
 200	1.0000e-001	-2.4689	-8.716211
 201	1.0050e-001	-0.0849	-6.517840

Center data before PMax,±Pr and ±Vc Calc.

PMax (µC/cm2):	4.79e+001
Pr (µC/cm2):	5.90e+000
-Pr (µC/cm2):	-6.52e+000
-Vc:	-6.33e+000
C (Max-Eff) (nF):	2.24e-001
Vert. (±Pr) Shift (µC/cm2):	-3.07e-001
Offset (µC/cm2):	1.78e+000

A (Loop Area - µC/cm2·Volts):	1.05e+003



Hysteresis Version: 5.15.2 - Radiant Technologies, Inc., 1999 - 11/06/17

